trial_num,subj_code,prop_incongruent,response_type,word,color,trial_type,orientation,response,is_correct,RT
1,acart3r,0.5,key,green,green,congruent,upside_down,g,1,1281.0
2,acart3r,0.5,key,red,red,congruent,upside_down,r,1,1013.0
3,acart3r,0.5,key,red,green,incongruent,upright,g,1,1155.0
4,acart3r,0.5,key,red,red,congruent,upright,r,1,906.0
5,acart3r,0.5,key,orange,blue,incongruent,upside_down,b,1,1074.0
6,acart3r,0.5,key,blue,yellow,incongruent,upside_down,y,1,1145.0
7,acart3r,0.5,key,yellow,orange,incongruent,upside_down,o,1,1318.0
8,acart3r,0.5,key,yellow,yellow,congruent,upside_down,y,1,1000.0
9,acart3r,0.5,key,orange,orange,congruent,upright,o,1,937.0
10,acart3r,0.5,key,orange,orange,congruent,upside_down,o,1,778.0
11,acart3r,0.5,key,orange,orange,congruent,upside_down,o,1,677.0
12,acart3r,0.5,key,green,green,congruent,upright,g,1,895.0
13,acart3r,0.5,key,green,green,congruent,upside_down,g,1,706.0
14,acart3r,0.5,key,green,green,congruent,upside_down,g,1,632.0
15,acart3r,0.5,key,red,blue,incongruent,upside_down,b,1,1317.0
16,acart3r,0.5,key,blue,orange,incongruent,upright,o,1,883.0
17,acart3r,0.5,key,red,red,congruent,upright,r,1,854.0
18,acart3r,0.5,key,orange,red,incongruent,upside_down,r,1,1152.0
19,acart3r,0.5,key,yellow,green,incongruent,upright,g,1,884.0
20,acart3r,0.5,key,orange,orange,congruent,upright,o,1,687.0
21,acart3r,0.5,key,yellow,yellow,congruent,upside_down,y,1,920.0
22,acart3r,0.5,key,green,green,congruent,upright,g,1,719.0
23,acart3r,0.5,key,red,red,congruent,upside_down,r,1,863.0
24,acart3r,0.5,key,green,red,incongruent,upside_down,r,1,945.0
25,acart3r,0.5,key,orange,green,incongruent,upright,g,1,945.0
26,acart3r,0.5,key,red,red,congruent,upright,r,1,826.0
27,acart3r,0.5,key,orange,orange,congruent,upright,o,1,705.0
28,acart3r,0.5,key,blue,blue,congruent,upside_down,b,1,850.0
29,acart3r,0.5,key,red,orange,incongruent,upright,o,1,923.0
30,acart3r,0.5,key,yellow,yellow,congruent,upside_down,y,1,818.0
31,acart3r,0.5,key,red,orange,incongruent,upside_down,o,1,975.0
32,acart3r,0.5,key,blue,yellow,incongruent,upside_down,y,1,1043.0
33,acart3r,0.5,key,orange,green,incongruent,upright,g,1,955.0
34,acart3r,0.5,key,red,green,incongruent,upright,g,1,781.0
35,acart3r,0.5,key,yellow,blue,incongruent,upright,b,1,1188.0
36,acart3r,0.5,key,red,blue,incongruent,upright,b,1,779.0
37,acart3r,0.5,key,green,orange,incongruent,upside_down,o,1,815.0
38,acart3r,0.5,key,orange,orange,congruent,upright,o,1,898.0
39,acart3r,0.5,key,blue,blue,congruent,upright,b,1,839.0
40,acart3r,0.5,key,orange,red,incongruent,upright,r,1,817.0
41,acart3r,0.5,key,orange,orange,congruent,upside_down,o,1,678.0
42,acart3r,0.5,key,blue,blue,congruent,upside_down,b,1,728.0
43,acart3r,0.5,key,blue,green,incongruent,upside_down,g,1,1027.0
44,acart3r,0.5,key,blue,yellow,incongruent,upright,y,1,1252.0
45,acart3r,0.5,key,green,yellow,incongruent,upside_down,y,1,1318.0
46,acart3r,0.5,key,blue,orange,incongruent,upside_down,o,1,919.0
47,acart3r,0.5,key,green,orange,incongruent,upside_down,o,1,645.0
48,acart3r,0.5,key,orange,orange,congruent,upside_down,o,1,560.0
49,acart3r,0.5,key,green,blue,incongruent,upright,b,1,931.0
50,acart3r,0.5,key,blue,blue,congruent,upright,b,1,701.0
51,acart3r,0.5,key,yellow,yellow,congruent,upside_down,y,1,909.0
52,acart3r,0.5,key,orange,green,incongruent,upright,g,1,995.0
53,acart3r,0.5,key,blue,blue,congruent,upside_down,b,1,822.0
54,acart3r,0.5,key,green,red,incongruent,upright,r,1,975.0
55,acart3r,0.5,key,yellow,yellow,congruent,upright,y,1,724.0
56,acart3r,0.5,key,blue,orange,incongruent,upside_down,o,1,766.0
57,acart3r,0.5,key,red,red,congruent,upright,r,1,906.0
58,acart3r,0.5,key,green,green,congruent,upside_down,g,1,659.0
59,acart3r,0.5,key,red,red,congruent,upright,r,1,674.0
60,acart3r,0.5,key,blue,blue,congruent,upside_down,b,1,688.0
61,acart3r,0.5,key,orange,orange,congruent,upright,o,1,589.0
62,acart3r,0.5,key,blue,blue,congruent,upside_down,b,1,772.0
63,acart3r,0.5,key,orange,orange,congruent,upside_down,o,1,575.0
64,acart3r,0.5,key,orange,orange,congruent,upright,o,1,520.0
65,acart3r,0.5,key,blue,blue,congruent,upright,b,1,931.0
66,acart3r,0.5,key,red,yellow,incongruent,upright,y,1,1066.0
67,acart3r,0.5,key,red,orange,incongruent,upright,o,1,814.0
68,acart3r,0.5,key,orange,yellow,incongruent,upright,y,1,1292.0
69,acart3r,0.5,key,green,green,congruent,upside_down,g,1,688.0
70,acart3r,0.5,key,orange,orange,congruent,upright,o,1,597.0
71,acart3r,0.5,key,yellow,yellow,congruent,upright,y,1,704.0
72,acart3r,0.5,key,orange,orange,congruent,upright,o,1,662.0
73,acart3r,0.5,key,yellow,blue,incongruent,upside_down,b,1,1049.0
74,acart3r,0.5,key,blue,blue,congruent,upright,b,1,779.0
75,acart3r,0.5,key,red,orange,incongruent,upside_down,g,0,995.0
76,acart3r,0.5,key,yellow,yellow,congruent,upside_down,y,1,1024.0
77,acart3r,0.5,key,red,yellow,incongruent,upside_down,y,1,1818.0
78,acart3r,0.5,key,blue,blue,congruent,upside_down,b,1,734.0
79,acart3r,0.5,key,orange,orange,congruent,upside_down,o,1,653.0
80,acart3r,0.5,key,red,blue,incongruent,upright,b,1,1344.0
81,acart3r,0.5,key,yellow,orange,incongruent,upright,o,1,1007.0
82,acart3r,0.5,key,blue,blue,congruent,upside_down,b,1,710.0
83,acart3r,0.5,key,red,blue,incongruent,upside_down,r,0,973.0
84,acart3r,0.5,key,red,yellow,incongruent,upside_down,y,1,1153.0
85,acart3r,0.5,key,red,blue,incongruent,upside_down,b,1,1261.0
86,acart3r,0.5,key,green,yellow,incongruent,upright,o,0,1109.0
87,acart3r,0.5,key,red,red,congruent,upright,r,1,1205.0
88,acart3r,0.5,key,orange,orange,congruent,upside_down,o,1,725.0
89,acart3r,0.5,key,blue,red,incongruent,upside_down,r,1,1303.0
90,acart3r,0.5,key,orange,orange,congruent,upside_down,o,1,702.0
91,acart3r,0.5,key,orange,orange,congruent,upright,o,1,649.0
92,acart3r,0.5,key,red,red,congruent,upright,r,1,611.0
93,acart3r,0.5,key,red,red,congruent,upside_down,r,1,690.0
94,acart3r,0.5,key,blue,orange,incongruent,upright,o,1,1035.0
95,acart3r,0.5,key,yellow,yellow,congruent,upside_down,y,1,804.0
96,acart3r,0.5,key,blue,red,incongruent,upside_down,r,1,850.0
97,acart3r,0.5,key,orange,blue,incongruent,upside_down,b,1,1084.0
98,acart3r,0.5,key,yellow,orange,incongruent,upright,o,1,913.0
99,acart3r,0.5,key,green,orange,incongruent,upside_down,o,1,1029.0
100,acart3r,0.5,key,blue,red,incongruent,upright,r,1,964.0
101,acart3r,0.5,key,red,orange,incongruent,upside_down,o,1,994.0
102,acart3r,0.5,key,blue,yellow,incongruent,upright,y,1,976.0
103,acart3r,0.5,key,yellow,green,incongruent,upside_down,g,1,937.0
104,acart3r,0.5,key,blue,orange,incongruent,upside_down,o,1,1166.0
105,acart3r,0.5,key,red,red,congruent,upright,r,1,1034.0
106,acart3r,0.5,key,orange,red,incongruent,upside_down,r,1,811.0
107,acart3r,0.5,key,yellow,green,incongruent,upright,g,1,803.0
108,acart3r,0.5,key,red,blue,incongruent,upright,b,1,1253.0
109,acart3r,0.5,key,orange,red,incongruent,upright,r,1,1179.0
110,acart3r,0.5,key,orange,orange,congruent,upright,o,1,677.0
111,acart3r,0.5,key,orange,orange,congruent,upright,o,1,534.0
112,acart3r,0.5,key,blue,red,incongruent,upright,r,1,845.0
113,acart3r,0.5,key,green,orange,incongruent,upright,o,1,920.0
114,acart3r,0.5,key,blue,red,incongruent,upright,r,1,744.0
115,acart3r,0.5,key,red,red,congruent,upright,r,1,562.0
116,acart3r,0.5,key,red,red,congruent,upside_down,r,1,428.0
117,acart3r,0.5,key,orange,blue,incongruent,upright,b,1,819.0
118,acart3r,0.5,key,orange,blue,incongruent,upright,b,1,673.0
119,acart3r,0.5,key,yellow,yellow,congruent,upside_down,y,1,831.0
120,acart3r,0.5,key,red,red,congruent,upside_down,r,1,692.0
