trial_num,subj_code,prop_incongruent,response_type,word,color,trial_type,orientation,response,is_correct,RT
1,sillyteelypixie,0.25,key,green,green,congruent,upside_down,g,1,991.0
2,sillyteelypixie,0.25,key,orange,orange,congruent,upside_down,o,1,794.0
3,sillyteelypixie,0.25,key,orange,orange,congruent,upright,o,1,666.0
4,sillyteelypixie,0.25,key,green,blue,incongruent,upside_down,b,1,958.0
5,sillyteelypixie,0.25,key,yellow,yellow,congruent,upside_down,y,1,727.0
6,sillyteelypixie,0.25,key,yellow,orange,incongruent,upright,o,1,935.0
7,sillyteelypixie,0.25,key,orange,orange,congruent,upright,o,1,787.0
8,sillyteelypixie,0.25,key,red,red,congruent,upright,r,1,673.0
9,sillyteelypixie,0.25,key,orange,orange,congruent,upright,o,1,739.0
10,sillyteelypixie,0.25,key,yellow,yellow,congruent,upside_down,y,1,936.0
11,sillyteelypixie,0.25,key,orange,orange,congruent,upside_down,o,1,806.0
12,sillyteelypixie,0.25,key,yellow,yellow,congruent,upside_down,y,1,936.0
13,sillyteelypixie,0.25,key,green,green,congruent,upright,g,1,752.0
14,sillyteelypixie,0.25,key,green,green,congruent,upside_down,g,1,723.0
15,sillyteelypixie,0.25,key,yellow,yellow,congruent,upright,y,1,752.0
16,sillyteelypixie,0.25,key,red,green,incongruent,upright,g,1,865.0
17,sillyteelypixie,0.25,key,green,red,incongruent,upright,r,1,865.0
18,sillyteelypixie,0.25,key,orange,orange,congruent,upright,o,1,827.0
19,sillyteelypixie,0.25,key,blue,blue,congruent,upright,b,1,724.0
20,sillyteelypixie,0.25,key,orange,orange,congruent,upright,o,1,949.0
21,sillyteelypixie,0.25,key,orange,orange,congruent,upright,o,1,673.0
22,sillyteelypixie,0.25,key,green,green,congruent,upright,g,1,777.0
23,sillyteelypixie,0.25,key,green,green,congruent,upside_down,g,1,762.0
24,sillyteelypixie,0.25,key,orange,orange,congruent,upside_down,o,1,789.0
25,sillyteelypixie,0.25,key,yellow,green,incongruent,upside_down,g,1,930.0
26,sillyteelypixie,0.25,key,red,red,congruent,upside_down,r,1,745.0
27,sillyteelypixie,0.25,key,red,red,congruent,upside_down,r,1,578.0
28,sillyteelypixie,0.25,key,orange,orange,congruent,upside_down,o,1,863.0
29,sillyteelypixie,0.25,key,red,red,congruent,upside_down,r,1,630.0
30,sillyteelypixie,0.25,key,red,yellow,incongruent,upright,y,1,953.0
31,sillyteelypixie,0.25,key,orange,red,incongruent,upside_down,r,1,754.0
32,sillyteelypixie,0.25,key,green,yellow,incongruent,upright,y,1,991.0
33,sillyteelypixie,0.25,key,yellow,green,incongruent,upside_down,g,1,822.0
34,sillyteelypixie,0.25,key,orange,orange,congruent,upright,o,1,833.0
35,sillyteelypixie,0.25,key,red,red,congruent,upright,r,1,660.0
36,sillyteelypixie,0.25,key,blue,green,incongruent,upright,g,1,1170.0
37,sillyteelypixie,0.25,key,yellow,green,incongruent,upright,g,1,741.0
38,sillyteelypixie,0.25,key,yellow,yellow,congruent,upside_down,y,1,817.0
39,sillyteelypixie,0.25,key,red,blue,incongruent,upside_down,b,1,1011.0
40,sillyteelypixie,0.25,key,green,green,congruent,upright,g,1,768.0
41,sillyteelypixie,0.25,key,yellow,yellow,congruent,upside_down,y,1,754.0
42,sillyteelypixie,0.25,key,blue,blue,congruent,upright,b,1,690.0
43,sillyteelypixie,0.25,key,blue,blue,congruent,upside_down,b,1,603.0
44,sillyteelypixie,0.25,key,red,red,congruent,upright,r,1,670.0
45,sillyteelypixie,0.25,key,green,green,congruent,upside_down,g,1,703.0
46,sillyteelypixie,0.25,key,orange,red,incongruent,upright,r,1,793.0
47,sillyteelypixie,0.25,key,orange,orange,congruent,upside_down,o,1,808.0
48,sillyteelypixie,0.25,key,red,red,congruent,upside_down,r,1,633.0
49,sillyteelypixie,0.25,key,blue,blue,congruent,upright,b,1,672.0
50,sillyteelypixie,0.25,key,yellow,yellow,congruent,upright,y,1,702.0
51,sillyteelypixie,0.25,key,blue,yellow,incongruent,upside_down,y,1,1026.0
52,sillyteelypixie,0.25,key,red,red,congruent,upside_down,r,1,706.0
53,sillyteelypixie,0.25,key,red,red,congruent,upright,r,1,518.0
54,sillyteelypixie,0.25,key,blue,blue,congruent,upright,b,1,662.0
55,sillyteelypixie,0.25,key,blue,blue,congruent,upright,b,1,594.0
56,sillyteelypixie,0.25,key,green,green,congruent,upright,g,1,723.0
57,sillyteelypixie,0.25,key,yellow,blue,incongruent,upright,b,1,1031.0
58,sillyteelypixie,0.25,key,red,red,congruent,upright,r,1,597.0
59,sillyteelypixie,0.25,key,red,red,congruent,upright,r,1,620.0
60,sillyteelypixie,0.25,key,green,green,congruent,upside_down,g,1,794.0
61,sillyteelypixie,0.25,key,blue,blue,congruent,upright,b,1,914.0
62,sillyteelypixie,0.25,key,red,red,congruent,upright,r,1,643.0
63,sillyteelypixie,0.25,key,blue,green,incongruent,upside_down,g,1,1126.0
64,sillyteelypixie,0.25,key,yellow,yellow,congruent,upright,y,1,823.0
65,sillyteelypixie,0.25,key,red,red,congruent,upright,r,1,732.0
66,sillyteelypixie,0.25,key,blue,blue,congruent,upside_down,b,1,710.0
67,sillyteelypixie,0.25,key,red,red,congruent,upright,r,1,662.0
68,sillyteelypixie,0.25,key,yellow,green,incongruent,upside_down,g,1,944.0
69,sillyteelypixie,0.25,key,yellow,yellow,congruent,upright,y,1,857.0
70,sillyteelypixie,0.25,key,blue,red,incongruent,upside_down,r,1,1034.0
71,sillyteelypixie,0.25,key,blue,blue,congruent,upside_down,b,1,786.0
72,sillyteelypixie,0.25,key,red,blue,incongruent,upright,b,1,1027.0
73,sillyteelypixie,0.25,key,green,green,congruent,upright,g,1,765.0
74,sillyteelypixie,0.25,key,yellow,yellow,congruent,upside_down,y,1,863.0
75,sillyteelypixie,0.25,key,yellow,yellow,congruent,upright,y,1,870.0
76,sillyteelypixie,0.25,key,green,green,congruent,upright,g,1,773.0
77,sillyteelypixie,0.25,key,red,red,congruent,upside_down,r,1,820.0
78,sillyteelypixie,0.25,key,red,red,congruent,upright,r,1,572.0
79,sillyteelypixie,0.25,key,red,red,congruent,upside_down,r,1,617.0
80,sillyteelypixie,0.25,key,blue,green,incongruent,upside_down,g,1,1457.0
81,sillyteelypixie,0.25,key,red,red,congruent,upside_down,r,1,724.0
82,sillyteelypixie,0.25,key,green,green,congruent,upside_down,g,1,716.0
83,sillyteelypixie,0.25,key,green,green,congruent,upright,g,1,740.0
84,sillyteelypixie,0.25,key,red,green,incongruent,upside_down,g,1,853.0
85,sillyteelypixie,0.25,key,orange,orange,congruent,upright,o,1,856.0
86,sillyteelypixie,0.25,key,green,green,congruent,upside_down,g,1,822.0
87,sillyteelypixie,0.25,key,red,red,congruent,upright,r,1,733.0
88,sillyteelypixie,0.25,key,green,yellow,incongruent,upside_down,y,1,940.0
89,sillyteelypixie,0.25,key,red,blue,incongruent,upright,b,1,1074.0
90,sillyteelypixie,0.25,key,red,yellow,incongruent,upside_down,y,1,885.0
91,sillyteelypixie,0.25,key,green,green,congruent,upright,g,1,780.0
92,sillyteelypixie,0.25,key,yellow,yellow,congruent,upside_down,y,1,886.0
93,sillyteelypixie,0.25,key,green,orange,incongruent,upside_down,o,1,979.0
94,sillyteelypixie,0.25,key,blue,blue,congruent,upside_down,b,1,750.0
95,sillyteelypixie,0.25,key,yellow,orange,incongruent,upside_down,o,1,900.0
96,sillyteelypixie,0.25,key,red,red,congruent,upside_down,r,1,755.0
97,sillyteelypixie,0.25,key,red,red,congruent,upright,r,1,636.0
98,sillyteelypixie,0.25,key,orange,orange,congruent,upside_down,o,1,784.0
99,sillyteelypixie,0.25,key,green,green,congruent,upright,g,1,730.0
100,sillyteelypixie,0.25,key,red,red,congruent,upside_down,r,1,637.0
101,sillyteelypixie,0.25,key,orange,orange,congruent,upside_down,o,1,832.0
102,sillyteelypixie,0.25,key,yellow,yellow,congruent,upside_down,y,1,902.0
103,sillyteelypixie,0.25,key,orange,orange,congruent,upside_down,o,1,766.0
104,sillyteelypixie,0.25,key,green,green,congruent,upside_down,g,1,804.0
105,sillyteelypixie,0.25,key,blue,green,incongruent,upside_down,g,1,1200.0
106,sillyteelypixie,0.25,key,green,green,congruent,upright,g,1,715.0
107,sillyteelypixie,0.25,key,red,red,congruent,upright,r,1,696.0
108,sillyteelypixie,0.25,key,yellow,yellow,congruent,upright,y,1,845.0
109,sillyteelypixie,0.25,key,yellow,yellow,congruent,upright,y,1,695.0
110,sillyteelypixie,0.25,key,green,green,congruent,upright,g,1,824.0
111,sillyteelypixie,0.25,key,yellow,yellow,congruent,upside_down,y,1,705.0
112,sillyteelypixie,0.25,key,blue,blue,congruent,upside_down,b,1,784.0
113,sillyteelypixie,0.25,key,blue,green,incongruent,upside_down,g,1,848.0
114,sillyteelypixie,0.25,key,blue,blue,congruent,upside_down,b,1,809.0
115,sillyteelypixie,0.25,key,yellow,red,incongruent,upright,r,1,980.0
116,sillyteelypixie,0.25,key,blue,blue,congruent,upright,b,1,689.0
117,sillyteelypixie,0.25,key,orange,yellow,incongruent,upright,y,1,964.0
118,sillyteelypixie,0.25,key,green,green,congruent,upside_down,g,1,777.0
119,sillyteelypixie,0.25,key,red,red,congruent,upside_down,r,1,770.0
120,sillyteelypixie,0.25,key,red,red,congruent,upright,r,1,870.0
