trial_num,subj_code,prop_incongruent,response_type,word,color,trial_type,orientation,response,is_correct,RT
1,goedenallyson,.5,key,orange,orange,congruent,upside_down,o,1,828.0
2,goedenallyson,.5,key,yellow,orange,incongruent,upright,o,1,828.0
3,goedenallyson,.5,key,orange,orange,congruent,upside_down,o,1,415.0
4,goedenallyson,.5,key,green,red,incongruent,upside_down,r,1,906.0
5,goedenallyson,.5,key,orange,blue,incongruent,upright,b,1,936.0
6,goedenallyson,.5,key,red,blue,incongruent,upright,b,1,781.0
7,goedenallyson,.5,key,blue,blue,congruent,upright,b,1,506.0
8,goedenallyson,.5,key,blue,blue,congruent,upright,b,1,503.0
9,goedenallyson,.5,key,blue,blue,congruent,upright,b,1,441.0
10,goedenallyson,.5,key,red,red,congruent,upside_down,r,1,558.0
11,goedenallyson,.5,key,orange,green,incongruent,upside_down,g,1,924.0
12,goedenallyson,.5,key,yellow,green,incongruent,upright,g,1,578.0
13,goedenallyson,.5,key,blue,green,incongruent,upright,g,1,566.0
14,goedenallyson,.5,key,orange,yellow,incongruent,upside_down,y,1,906.0
15,goedenallyson,.5,key,green,green,congruent,upside_down,g,1,851.0
16,goedenallyson,.5,key,blue,red,incongruent,upright,r,1,1000.0
17,goedenallyson,.5,key,green,blue,incongruent,upside_down,b,1,818.0
18,goedenallyson,.5,key,yellow,yellow,congruent,upright,y,1,721.0
19,goedenallyson,.5,key,yellow,green,incongruent,upright,g,1,818.0
20,goedenallyson,.5,key,yellow,red,incongruent,upright,r,1,804.0
21,goedenallyson,.5,key,orange,yellow,incongruent,upside_down,y,1,796.0
22,goedenallyson,.5,key,green,green,congruent,upright,g,1,608.0
23,goedenallyson,.5,key,green,green,congruent,upside_down,g,1,578.0
24,goedenallyson,.5,key,blue,yellow,incongruent,upside_down,y,1,913.0
25,goedenallyson,.5,key,orange,red,incongruent,upright,r,1,737.0
26,goedenallyson,.5,key,green,green,congruent,upside_down,g,1,656.0
27,goedenallyson,.5,key,red,orange,incongruent,upside_down,o,1,1046.0
28,goedenallyson,.5,key,yellow,yellow,congruent,upright,y,1,649.0
29,goedenallyson,.5,key,yellow,green,incongruent,upside_down,g,1,765.0
30,goedenallyson,.5,key,red,green,incongruent,upright,g,1,595.0
31,goedenallyson,.5,key,yellow,orange,incongruent,upright,o,1,869.0
32,goedenallyson,.5,key,red,red,congruent,upside_down,r,1,824.0
33,goedenallyson,.5,key,orange,orange,congruent,upside_down,o,1,597.0
34,goedenallyson,.5,key,red,orange,incongruent,upright,NA,0,NA
35,goedenallyson,.5,key,yellow,yellow,congruent,upright,y,1,997.0
36,goedenallyson,.5,key,yellow,yellow,congruent,upright,y,1,587.0
37,goedenallyson,.5,key,orange,orange,congruent,upside_down,o,1,660.0
38,goedenallyson,.5,key,green,yellow,incongruent,upside_down,y,1,2439.0
39,goedenallyson,.5,key,green,green,congruent,upside_down,g,1,696.0
40,goedenallyson,.5,key,blue,blue,congruent,upside_down,NA,0,NA
41,goedenallyson,.5,key,orange,orange,congruent,upside_down,o,1,737.0
42,goedenallyson,.5,key,yellow,yellow,congruent,upright,y,1,674.0
43,goedenallyson,.5,key,red,red,congruent,upright,r,1,581.0
44,goedenallyson,.5,key,orange,yellow,incongruent,upside_down,y,1,812.0
45,goedenallyson,.5,key,orange,red,incongruent,upside_down,r,1,725.0
46,goedenallyson,.5,key,blue,blue,congruent,upright,b,1,656.0
47,goedenallyson,.5,key,yellow,red,incongruent,upright,r,1,814.0
48,goedenallyson,.5,key,green,blue,incongruent,upright,b,1,863.0
49,goedenallyson,.5,key,yellow,yellow,congruent,upright,y,1,684.0
50,goedenallyson,.5,key,red,red,congruent,upright,r,1,516.0
51,goedenallyson,.5,key,blue,blue,congruent,upside_down,b,1,684.0
52,goedenallyson,.5,key,yellow,yellow,congruent,upright,y,1,649.0
53,goedenallyson,.5,key,orange,orange,congruent,upright,o,1,676.0
54,goedenallyson,.5,key,orange,green,incongruent,upside_down,g,1,860.0
55,goedenallyson,.5,key,orange,orange,congruent,upright,o,1,866.0
56,goedenallyson,.5,key,orange,green,incongruent,upright,g,1,864.0
57,goedenallyson,.5,key,red,orange,incongruent,upright,o,1,653.0
58,goedenallyson,.5,key,green,green,congruent,upright,g,1,564.0
59,goedenallyson,.5,key,yellow,blue,incongruent,upside_down,b,1,895.0
60,goedenallyson,.5,key,yellow,green,incongruent,upright,NA,0,NA
61,goedenallyson,.5,key,red,red,congruent,upside_down,r,1,618.0
62,goedenallyson,.5,key,orange,orange,congruent,upright,o,1,667.0
63,goedenallyson,.5,key,orange,yellow,incongruent,upside_down,y,1,871.0
64,goedenallyson,.5,key,blue,blue,congruent,upright,b,1,610.0
65,goedenallyson,.5,key,yellow,yellow,congruent,upright,y,1,664.0
66,goedenallyson,.5,key,red,green,incongruent,upright,g,1,908.0
67,goedenallyson,.5,key,orange,yellow,incongruent,upside_down,y,1,785.0
68,goedenallyson,.5,key,blue,blue,congruent,upright,b,1,677.0
69,goedenallyson,.5,key,green,yellow,incongruent,upside_down,y,1,867.0
70,goedenallyson,.5,key,red,red,congruent,upside_down,r,1,637.0
71,goedenallyson,.5,key,green,green,congruent,upside_down,g,1,651.0
72,goedenallyson,.5,key,red,red,congruent,upright,r,1,546.0
73,goedenallyson,.5,key,orange,blue,incongruent,upright,b,1,776.0
74,goedenallyson,.5,key,yellow,red,incongruent,upside_down,r,1,797.0
75,goedenallyson,.5,key,orange,orange,congruent,upside_down,o,1,668.0
76,goedenallyson,.5,key,yellow,blue,incongruent,upside_down,b,1,809.0
77,goedenallyson,.5,key,red,red,congruent,upside_down,r,1,650.0
78,goedenallyson,.5,key,green,yellow,incongruent,upside_down,y,1,825.0
79,goedenallyson,.5,key,yellow,green,incongruent,upside_down,g,1,904.0
80,goedenallyson,.5,key,blue,orange,incongruent,upside_down,b,0,721.0
81,goedenallyson,.5,key,orange,orange,congruent,upside_down,o,1,982.0
82,goedenallyson,.5,key,orange,red,incongruent,upright,r,1,642.0
83,goedenallyson,.5,key,orange,orange,congruent,upside_down,o,1,555.0
84,goedenallyson,.5,key,blue,green,incongruent,upside_down,g,1,884.0
85,goedenallyson,.5,key,red,green,incongruent,upside_down,g,1,575.0
86,goedenallyson,.5,key,yellow,orange,incongruent,upright,o,1,903.0
87,goedenallyson,.5,key,blue,blue,congruent,upside_down,b,1,853.0
88,goedenallyson,.5,key,yellow,yellow,congruent,upside_down,y,1,696.0
89,goedenallyson,.5,key,orange,orange,congruent,upright,o,1,548.0
90,goedenallyson,.5,key,yellow,red,incongruent,upright,r,1,682.0
91,goedenallyson,.5,key,orange,orange,congruent,upright,o,1,732.0
92,goedenallyson,.5,key,blue,orange,incongruent,upright,o,1,790.0
93,goedenallyson,.5,key,blue,orange,incongruent,upside_down,o,1,652.0
94,goedenallyson,.5,key,orange,orange,congruent,upright,o,1,460.0
95,goedenallyson,.5,key,blue,red,incongruent,upright,r,1,792.0
96,goedenallyson,.5,key,green,green,congruent,upside_down,g,1,688.0
97,goedenallyson,.5,key,yellow,yellow,congruent,upside_down,y,1,688.0
98,goedenallyson,.5,key,blue,yellow,incongruent,upright,y,1,813.0
99,goedenallyson,.5,key,blue,green,incongruent,upside_down,g,1,773.0
100,goedenallyson,.5,key,orange,orange,congruent,upside_down,o,1,699.0
