trial_num,subj_code,prop_incongruent,response_type,word,color,trial_type,orientation,response,is_correct,RT
1,Shuheng Jiang,0.5,key,orange,orange,congruent,upright,o,1,1235.0
2,Shuheng Jiang,0.5,key,orange,blue,incongruent,upside_down,b,1,1057.0
3,Shuheng Jiang,0.5,key,orange,red,incongruent,upside_down,r,1,969.0
4,Shuheng Jiang,0.5,key,blue,blue,congruent,upright,b,1,744.0
5,Shuheng Jiang,0.5,key,red,yellow,incongruent,upright,y,1,1655.0
6,Shuheng Jiang,0.5,key,green,green,congruent,upright,g,1,772.0
7,Shuheng Jiang,0.5,key,green,green,congruent,upright,g,1,721.0
8,Shuheng Jiang,0.5,key,orange,orange,congruent,upside_down,o,1,767.0
9,Shuheng Jiang,0.5,key,green,green,congruent,upside_down,g,1,669.0
10,Shuheng Jiang,0.5,key,orange,yellow,incongruent,upright,y,1,1185.0
11,Shuheng Jiang,0.5,key,red,blue,incongruent,upright,b,1,711.0
12,Shuheng Jiang,0.5,key,blue,orange,incongruent,upside_down,o,1,1041.0
13,Shuheng Jiang,0.5,key,orange,orange,congruent,upside_down,o,1,753.0
14,Shuheng Jiang,0.5,key,yellow,yellow,congruent,upside_down,y,1,792.0
15,Shuheng Jiang,0.5,key,blue,green,incongruent,upside_down,g,1,943.0
16,Shuheng Jiang,0.5,key,orange,red,incongruent,upright,r,1,850.0
17,Shuheng Jiang,0.5,key,orange,red,incongruent,upside_down,r,1,943.0
18,Shuheng Jiang,0.5,key,green,orange,incongruent,upside_down,o,1,901.0
19,Shuheng Jiang,0.5,key,blue,yellow,incongruent,upright,y,1,933.0
20,Shuheng Jiang,0.5,key,green,green,congruent,upright,g,1,711.0
21,Shuheng Jiang,0.5,key,red,yellow,incongruent,upright,y,1,960.0
22,Shuheng Jiang,0.5,key,orange,orange,congruent,upright,o,1,808.0
23,Shuheng Jiang,0.5,key,yellow,blue,incongruent,upside_down,b,1,1001.0
24,Shuheng Jiang,0.5,key,red,red,congruent,upright,r,1,749.0
25,Shuheng Jiang,0.5,key,orange,blue,incongruent,upright,b,1,1010.0
26,Shuheng Jiang,0.5,key,green,green,congruent,upside_down,g,1,668.0
27,Shuheng Jiang,0.5,key,blue,red,incongruent,upright,r,1,671.0
28,Shuheng Jiang,0.5,key,green,blue,incongruent,upright,b,1,826.0
29,Shuheng Jiang,0.5,key,orange,orange,congruent,upside_down,o,1,810.0
30,Shuheng Jiang,0.5,key,blue,green,incongruent,upright,g,1,989.0
31,Shuheng Jiang,0.5,key,blue,blue,congruent,upright,b,1,665.0
32,Shuheng Jiang,0.5,key,red,yellow,incongruent,upside_down,y,1,1080.0
33,Shuheng Jiang,0.5,key,red,red,congruent,upright,r,1,790.0
34,Shuheng Jiang,0.5,key,blue,red,incongruent,upright,r,1,1086.0
35,Shuheng Jiang,0.5,key,green,green,congruent,upside_down,g,1,741.0
36,Shuheng Jiang,0.5,key,yellow,orange,incongruent,upright,o,1,967.0
37,Shuheng Jiang,0.5,key,yellow,yellow,congruent,upright,y,1,1075.0
38,Shuheng Jiang,0.5,key,blue,blue,congruent,upside_down,b,1,644.0
39,Shuheng Jiang,0.5,key,yellow,yellow,congruent,upside_down,y,1,848.0
40,Shuheng Jiang,0.5,key,orange,orange,congruent,upside_down,o,1,807.0
41,Shuheng Jiang,0.5,key,blue,blue,congruent,upside_down,b,1,732.0
42,Shuheng Jiang,0.5,key,blue,blue,congruent,upside_down,b,1,600.0
43,Shuheng Jiang,0.5,key,green,green,congruent,upside_down,g,1,680.0
44,Shuheng Jiang,0.5,key,red,orange,incongruent,upright,o,1,1011.0
45,Shuheng Jiang,0.5,key,green,green,congruent,upside_down,g,1,742.0
46,Shuheng Jiang,0.5,key,blue,yellow,incongruent,upright,y,1,1186.0
47,Shuheng Jiang,0.5,key,green,yellow,incongruent,upright,y,1,727.0
48,Shuheng Jiang,0.5,key,red,red,congruent,upright,r,1,688.0
49,Shuheng Jiang,0.5,key,yellow,red,incongruent,upside_down,r,1,1031.0
50,Shuheng Jiang,0.5,key,blue,blue,congruent,upright,b,1,696.0
51,Shuheng Jiang,0.5,key,green,orange,incongruent,upside_down,o,1,818.0
52,Shuheng Jiang,0.5,key,orange,orange,congruent,upside_down,o,1,739.0
53,Shuheng Jiang,0.5,key,yellow,yellow,congruent,upright,y,1,728.0
54,Shuheng Jiang,0.5,key,yellow,red,incongruent,upright,r,1,745.0
55,Shuheng Jiang,0.5,key,yellow,green,incongruent,upright,g,1,804.0
56,Shuheng Jiang,0.5,key,orange,orange,congruent,upside_down,o,1,768.0
57,Shuheng Jiang,0.5,key,red,red,congruent,upside_down,r,1,677.0
58,Shuheng Jiang,0.5,key,blue,green,incongruent,upright,g,1,802.0
59,Shuheng Jiang,0.5,key,blue,green,incongruent,upright,g,1,633.0
60,Shuheng Jiang,0.5,key,orange,green,incongruent,upside_down,g,1,728.0
61,Shuheng Jiang,0.5,key,red,red,congruent,upside_down,r,1,650.0
62,Shuheng Jiang,0.5,key,red,yellow,incongruent,upright,y,1,915.0
63,Shuheng Jiang,0.5,key,green,green,congruent,upside_down,g,1,692.0
64,Shuheng Jiang,0.5,key,red,red,congruent,upside_down,r,1,708.0
65,Shuheng Jiang,0.5,key,green,orange,incongruent,upside_down,o,1,803.0
66,Shuheng Jiang,0.5,key,green,orange,incongruent,upright,o,1,942.0
67,Shuheng Jiang,0.5,key,green,green,congruent,upside_down,g,1,640.0
68,Shuheng Jiang,0.5,key,red,red,congruent,upright,r,1,679.0
69,Shuheng Jiang,0.5,key,red,blue,incongruent,upside_down,b,1,1011.0
70,Shuheng Jiang,0.5,key,yellow,blue,incongruent,upright,b,1,861.0
71,Shuheng Jiang,0.5,key,red,orange,incongruent,upright,o,1,943.0
72,Shuheng Jiang,0.5,key,blue,blue,congruent,upside_down,b,1,974.0
73,Shuheng Jiang,0.5,key,orange,orange,congruent,upright,o,1,690.0
74,Shuheng Jiang,0.5,key,blue,yellow,incongruent,upright,y,1,899.0
75,Shuheng Jiang,0.5,key,orange,green,incongruent,upright,g,1,892.0
76,Shuheng Jiang,0.5,key,green,red,incongruent,upside_down,r,1,950.0
77,Shuheng Jiang,0.5,key,blue,blue,congruent,upright,b,1,722.0
78,Shuheng Jiang,0.5,key,yellow,yellow,congruent,upright,y,1,797.0
79,Shuheng Jiang,0.5,key,red,blue,incongruent,upright,b,1,903.0
80,Shuheng Jiang,0.5,key,red,red,congruent,upright,r,1,1111.0
81,Shuheng Jiang,0.5,key,orange,orange,congruent,upright,o,1,812.0
82,Shuheng Jiang,0.5,key,orange,blue,incongruent,upside_down,b,1,1037.0
83,Shuheng Jiang,0.5,key,orange,green,incongruent,upright,g,1,975.0
84,Shuheng Jiang,0.5,key,orange,orange,congruent,upside_down,o,1,876.0
85,Shuheng Jiang,0.5,key,green,green,congruent,upside_down,g,1,730.0
86,Shuheng Jiang,0.5,key,green,green,congruent,upright,g,1,1066.0
87,Shuheng Jiang,0.5,key,orange,blue,incongruent,upside_down,b,1,1062.0
88,Shuheng Jiang,0.5,key,red,red,congruent,upright,r,1,725.0
89,Shuheng Jiang,0.5,key,red,red,congruent,upside_down,r,1,613.0
90,Shuheng Jiang,0.5,key,yellow,blue,incongruent,upside_down,b,1,990.0
91,Shuheng Jiang,0.5,key,green,green,congruent,upright,g,1,671.0
92,Shuheng Jiang,0.5,key,red,red,congruent,upside_down,r,1,912.0
93,Shuheng Jiang,0.5,key,blue,blue,congruent,upright,b,1,755.0
94,Shuheng Jiang,0.5,key,orange,orange,congruent,upright,o,1,805.0
95,Shuheng Jiang,0.5,key,blue,orange,incongruent,upright,o,1,1087.0
96,Shuheng Jiang,0.5,key,yellow,yellow,congruent,upright,y,1,840.0
97,Shuheng Jiang,0.5,key,blue,orange,incongruent,upside_down,o,1,1058.0
98,Shuheng Jiang,0.5,key,yellow,orange,incongruent,upside_down,o,1,1205.0
99,Shuheng Jiang,0.5,key,red,red,congruent,upside_down,r,1,832.0
100,Shuheng Jiang,0.5,key,orange,red,incongruent,upright,r,1,1608.0
101,Shuheng Jiang,0.5,key,green,red,incongruent,upside_down,r,1,779.0
102,Shuheng Jiang,0.5,key,blue,yellow,incongruent,upside_down,y,1,1133.0
103,Shuheng Jiang,0.5,key,red,red,congruent,upright,r,1,702.0
104,Shuheng Jiang,0.5,key,red,blue,incongruent,upside_down,b,1,991.0
105,Shuheng Jiang,0.5,key,orange,yellow,incongruent,upside_down,y,1,1132.0
106,Shuheng Jiang,0.5,key,orange,red,incongruent,upright,r,1,880.0
107,Shuheng Jiang,0.5,key,orange,orange,congruent,upside_down,o,1,780.0
108,Shuheng Jiang,0.5,key,red,red,congruent,upside_down,r,1,668.0
109,Shuheng Jiang,0.5,key,yellow,yellow,congruent,upside_down,y,1,867.0
110,Shuheng Jiang,0.5,key,green,green,congruent,upright,g,1,796.0
111,Shuheng Jiang,0.5,key,blue,red,incongruent,upside_down,r,1,956.0
112,Shuheng Jiang,0.5,key,red,blue,incongruent,upside_down,b,1,848.0
113,Shuheng Jiang,0.5,key,orange,yellow,incongruent,upright,y,1,1079.0
114,Shuheng Jiang,0.5,key,orange,green,incongruent,upside_down,g,1,1170.0
115,Shuheng Jiang,0.5,key,orange,orange,congruent,upright,o,1,797.0
116,Shuheng Jiang,0.5,key,red,blue,incongruent,upside_down,b,1,918.0
117,Shuheng Jiang,0.5,key,red,red,congruent,upside_down,r,1,784.0
118,Shuheng Jiang,0.5,key,orange,orange,congruent,upside_down,o,1,772.0
119,Shuheng Jiang,0.5,key,orange,blue,incongruent,upright,b,1,887.0
120,Shuheng Jiang,0.5,key,red,green,incongruent,upside_down,g,1,948.0
