trial_num,subj_code,prop_incongruent,response_type,word,color,trial_type,orientation,response,is_correct,RT
1,TianrunZ,0.5,key,green,green,congruent,upside_down,g,1,1566.0
2,TianrunZ,0.5,key,blue,blue,congruent,upside_down,b,1,755.0
3,TianrunZ,0.5,key,green,orange,incongruent,upside_down,o,1,1203.0
4,TianrunZ,0.5,key,orange,blue,incongruent,upside_down,b,1,726.0
5,TianrunZ,0.5,key,blue,orange,incongruent,upright,o,1,682.0
6,TianrunZ,0.5,key,orange,orange,congruent,upright,o,1,498.0
7,TianrunZ,0.5,key,red,blue,incongruent,upside_down,b,1,628.0
8,TianrunZ,0.5,key,yellow,blue,incongruent,upside_down,b,1,512.0
9,TianrunZ,0.5,key,orange,orange,congruent,upright,o,1,910.0
10,TianrunZ,0.5,key,orange,yellow,incongruent,upside_down,y,1,938.0
11,TianrunZ,0.5,key,green,red,incongruent,upright,r,1,1054.0
12,TianrunZ,0.5,key,orange,green,incongruent,upright,g,1,1222.0
13,TianrunZ,0.5,key,orange,orange,congruent,upright,o,1,786.0
14,TianrunZ,0.5,key,yellow,blue,incongruent,upright,b,1,805.0
15,TianrunZ,0.5,key,blue,blue,congruent,upright,b,1,563.0
16,TianrunZ,0.5,key,yellow,yellow,congruent,upright,y,1,702.0
17,TianrunZ,0.5,key,yellow,yellow,congruent,upright,y,1,599.0
18,TianrunZ,0.5,key,orange,blue,incongruent,upright,b,1,719.0
19,TianrunZ,0.5,key,blue,blue,congruent,upright,b,1,477.0
20,TianrunZ,0.5,key,green,green,congruent,upright,g,1,922.0
21,TianrunZ,0.5,key,yellow,red,incongruent,upright,r,1,994.0
22,TianrunZ,0.5,key,red,orange,incongruent,upright,o,1,924.0
23,TianrunZ,0.5,key,green,red,incongruent,upside_down,r,1,1010.0
24,TianrunZ,0.5,key,yellow,yellow,congruent,upside_down,y,1,690.0
25,TianrunZ,0.5,key,red,orange,incongruent,upright,o,1,769.0
26,TianrunZ,0.5,key,green,orange,incongruent,upside_down,o,1,616.0
27,TianrunZ,0.5,key,yellow,yellow,congruent,upside_down,y,1,763.0
28,TianrunZ,0.5,key,orange,green,incongruent,upright,g,1,797.0
29,TianrunZ,0.5,key,green,orange,incongruent,upside_down,o,1,1223.0
30,TianrunZ,0.5,key,blue,green,incongruent,upright,g,1,1070.0
31,TianrunZ,0.5,key,red,red,congruent,upright,r,1,1040.0
32,TianrunZ,0.5,key,blue,yellow,incongruent,upside_down,y,1,755.0
33,TianrunZ,0.5,key,green,green,congruent,upright,g,1,575.0
34,TianrunZ,0.5,key,red,green,incongruent,upright,g,1,649.0
35,TianrunZ,0.5,key,blue,blue,congruent,upright,b,1,620.0
36,TianrunZ,0.5,key,green,green,congruent,upside_down,g,1,575.0
37,TianrunZ,0.5,key,orange,green,incongruent,upside_down,g,1,527.0
38,TianrunZ,0.5,key,green,yellow,incongruent,upright,y,1,818.0
39,TianrunZ,0.5,key,green,green,congruent,upside_down,g,1,630.0
40,TianrunZ,0.5,key,green,green,congruent,upright,g,1,378.0
41,TianrunZ,0.5,key,yellow,orange,incongruent,upside_down,o,1,925.0
42,TianrunZ,0.5,key,green,green,congruent,upright,g,1,694.0
43,TianrunZ,0.5,key,orange,green,incongruent,upright,g,1,464.0
44,TianrunZ,0.5,key,green,green,congruent,upside_down,g,1,452.0
45,TianrunZ,0.5,key,yellow,yellow,congruent,upright,y,1,799.0
46,TianrunZ,0.5,key,yellow,blue,incongruent,upright,b,1,675.0
47,TianrunZ,0.5,key,green,red,incongruent,upside_down,r,1,797.0
48,TianrunZ,0.5,key,yellow,yellow,congruent,upright,y,1,767.0
49,TianrunZ,0.5,key,yellow,orange,incongruent,upside_down,o,1,851.0
50,TianrunZ,0.5,key,red,blue,incongruent,upright,b,1,670.0
51,TianrunZ,0.5,key,yellow,yellow,congruent,upright,y,1,686.0
52,TianrunZ,0.5,key,red,blue,incongruent,upright,b,1,631.0
53,TianrunZ,0.5,key,red,red,congruent,upright,r,1,798.0
54,TianrunZ,0.5,key,green,red,incongruent,upright,r,1,563.0
55,TianrunZ,0.5,key,orange,orange,congruent,upside_down,o,1,844.0
56,TianrunZ,0.5,key,green,blue,incongruent,upright,b,1,714.0
57,TianrunZ,0.5,key,orange,red,incongruent,upside_down,r,1,1113.0
58,TianrunZ,0.5,key,orange,green,incongruent,upright,g,1,1058.0
59,TianrunZ,0.5,key,yellow,yellow,congruent,upside_down,y,1,766.0
60,TianrunZ,0.5,key,green,green,congruent,upright,g,1,813.0
61,TianrunZ,0.5,key,green,green,congruent,upside_down,g,1,568.0
62,TianrunZ,0.5,key,red,red,congruent,upside_down,r,1,976.0
63,TianrunZ,0.5,key,green,green,congruent,upside_down,g,1,710.0
64,TianrunZ,0.5,key,orange,green,incongruent,upright,g,1,835.0
65,TianrunZ,0.5,key,yellow,red,incongruent,upright,r,1,910.0
66,TianrunZ,0.5,key,orange,orange,congruent,upright,o,1,892.0
67,TianrunZ,0.5,key,orange,orange,congruent,upright,o,1,507.0
68,TianrunZ,0.5,key,blue,yellow,incongruent,upright,y,1,1275.0
69,TianrunZ,0.5,key,green,blue,incongruent,upside_down,b,1,605.0
70,TianrunZ,0.5,key,yellow,red,incongruent,upright,r,1,765.0
71,TianrunZ,0.5,key,green,red,incongruent,upright,r,1,693.0
72,TianrunZ,0.5,key,red,red,congruent,upside_down,r,1,538.0
73,TianrunZ,0.5,key,orange,yellow,incongruent,upside_down,y,1,823.0
74,TianrunZ,0.5,key,blue,green,incongruent,upside_down,g,1,860.0
75,TianrunZ,0.5,key,orange,orange,congruent,upright,o,1,891.0
76,TianrunZ,0.5,key,orange,orange,congruent,upright,o,1,554.0
77,TianrunZ,0.5,key,blue,green,incongruent,upright,g,1,959.0
78,TianrunZ,0.5,key,yellow,red,incongruent,upright,r,1,871.0
79,TianrunZ,0.5,key,red,red,congruent,upright,r,1,387.0
80,TianrunZ,0.5,key,orange,red,incongruent,upside_down,r,1,371.0
81,TianrunZ,0.5,key,green,green,congruent,upside_down,g,1,755.0
82,TianrunZ,0.5,key,green,blue,incongruent,upside_down,b,1,627.0
83,TianrunZ,0.5,key,blue,blue,congruent,upright,b,1,496.0
84,TianrunZ,0.5,key,red,red,congruent,upright,r,1,845.0
85,TianrunZ,0.5,key,yellow,blue,incongruent,upside_down,b,1,589.0
86,TianrunZ,0.5,key,orange,orange,congruent,upside_down,o,1,882.0
87,TianrunZ,0.5,key,yellow,yellow,congruent,upside_down,y,1,675.0
88,TianrunZ,0.5,key,green,green,congruent,upside_down,g,1,795.0
89,TianrunZ,0.5,key,yellow,yellow,congruent,upside_down,y,1,611.0
90,TianrunZ,0.5,key,red,orange,incongruent,upside_down,o,1,1333.0
91,TianrunZ,0.5,key,yellow,red,incongruent,upside_down,r,1,804.0
92,TianrunZ,0.5,key,red,orange,incongruent,upside_down,o,1,1014.0
93,TianrunZ,0.5,key,blue,blue,congruent,upright,b,1,613.0
94,TianrunZ,0.5,key,orange,blue,incongruent,upright,b,1,506.0
95,TianrunZ,0.5,key,blue,blue,congruent,upside_down,b,1,479.0
96,TianrunZ,0.5,key,yellow,yellow,congruent,upright,y,1,650.0
97,TianrunZ,0.5,key,green,green,congruent,upside_down,g,1,647.0
98,TianrunZ,0.5,key,blue,orange,incongruent,upside_down,o,1,968.0
99,TianrunZ,0.5,key,orange,orange,congruent,upside_down,o,1,515.0
100,TianrunZ,0.5,key,red,green,incongruent,upside_down,g,1,757.0
101,TianrunZ,0.5,key,red,green,incongruent,upside_down,g,1,426.0
102,TianrunZ,0.5,key,orange,yellow,incongruent,upright,y,1,962.0
103,TianrunZ,0.5,key,orange,red,incongruent,upside_down,r,1,787.0
104,TianrunZ,0.5,key,green,green,congruent,upside_down,g,1,829.0
105,TianrunZ,0.5,key,orange,orange,congruent,upside_down,o,1,1002.0
106,TianrunZ,0.5,key,red,green,incongruent,upright,g,1,785.0
107,TianrunZ,0.5,key,yellow,red,incongruent,upside_down,r,1,1061.0
108,TianrunZ,0.5,key,orange,blue,incongruent,upside_down,b,1,697.0
109,TianrunZ,0.5,key,yellow,blue,incongruent,upside_down,b,1,500.0
110,TianrunZ,0.5,key,red,red,congruent,upright,r,1,692.0
111,TianrunZ,0.5,key,blue,blue,congruent,upside_down,b,1,673.0
112,TianrunZ,0.5,key,red,red,congruent,upright,r,1,605.0
113,TianrunZ,0.5,key,red,red,congruent,upside_down,r,1,645.0
114,TianrunZ,0.5,key,blue,blue,congruent,upside_down,b,1,560.0
115,TianrunZ,0.5,key,blue,blue,congruent,upside_down,b,1,524.0
116,TianrunZ,0.5,key,blue,blue,congruent,upside_down,b,1,495.0
117,TianrunZ,0.5,key,green,green,congruent,upside_down,g,1,700.0
118,TianrunZ,0.5,key,green,green,congruent,upright,g,1,493.0
119,TianrunZ,0.5,key,red,orange,incongruent,upright,o,1,946.0
120,TianrunZ,0.5,key,red,red,congruent,upside_down,r,1,820.0
