trial_num,subj_code,prop_incongruent,response_type,word,color,trial_type,orientation,response,is_correct,RT
1,zdspangler,0.25,key,yellow,yellow,congruent,upside_down,y,1,818.0
2,zdspangler,0.25,key,orange,orange,congruent,upside_down,o,1,602.0
3,zdspangler,0.25,key,orange,orange,congruent,upside_down,o,1,597.0
4,zdspangler,0.25,key,blue,orange,incongruent,upright,o,1,872.0
5,zdspangler,0.25,key,yellow,yellow,congruent,upside_down,y,1,788.0
6,zdspangler,0.25,key,yellow,yellow,congruent,upright,y,1,743.0
7,zdspangler,0.25,key,orange,orange,congruent,upside_down,o,1,517.0
8,zdspangler,0.25,key,blue,blue,congruent,upright,b,1,644.0
9,zdspangler,0.25,key,green,yellow,incongruent,upright,y,1,1095.0
10,zdspangler,0.25,key,blue,green,incongruent,upside_down,g,1,779.0
11,zdspangler,0.25,key,blue,blue,congruent,upside_down,b,1,637.0
12,zdspangler,0.25,key,green,green,congruent,upside_down,g,1,571.0
13,zdspangler,0.25,key,orange,blue,incongruent,upside_down,b,1,767.0
14,zdspangler,0.25,key,green,red,incongruent,upside_down,r,1,805.0
15,zdspangler,0.25,key,orange,orange,congruent,upright,o,1,666.0
16,zdspangler,0.25,key,yellow,red,incongruent,upside_down,r,1,820.0
17,zdspangler,0.25,key,green,green,congruent,upright,g,1,693.0
18,zdspangler,0.25,key,red,orange,incongruent,upright,o,1,694.0
19,zdspangler,0.25,key,green,green,congruent,upside_down,g,1,644.0
20,zdspangler,0.25,key,red,red,congruent,upside_down,r,1,496.0
21,zdspangler,0.25,key,orange,orange,congruent,upright,o,1,651.0
22,zdspangler,0.25,key,yellow,yellow,congruent,upright,y,1,718.0
23,zdspangler,0.25,key,blue,blue,congruent,upright,b,1,497.0
24,zdspangler,0.25,key,orange,orange,congruent,upside_down,o,1,504.0
25,zdspangler,0.25,key,red,red,congruent,upside_down,r,1,632.0
26,zdspangler,0.25,key,green,green,congruent,upright,g,1,702.0
27,zdspangler,0.25,key,green,green,congruent,upside_down,g,1,597.0
28,zdspangler,0.25,key,red,green,incongruent,upside_down,g,1,831.0
29,zdspangler,0.25,key,green,yellow,incongruent,upside_down,y,1,977.0
30,zdspangler,0.25,key,orange,green,incongruent,upside_down,g,1,775.0
31,zdspangler,0.25,key,blue,blue,congruent,upside_down,b,1,668.0
32,zdspangler,0.25,key,red,red,congruent,upside_down,r,1,661.0
33,zdspangler,0.25,key,green,green,congruent,upside_down,g,1,759.0
34,zdspangler,0.25,key,red,red,congruent,upside_down,r,1,743.0
35,zdspangler,0.25,key,orange,orange,congruent,upside_down,o,1,508.0
36,zdspangler,0.25,key,orange,orange,congruent,upright,o,1,491.0
37,zdspangler,0.25,key,orange,orange,congruent,upright,o,1,378.0
38,zdspangler,0.25,key,green,green,congruent,upside_down,g,1,676.0
39,zdspangler,0.25,key,blue,blue,congruent,upright,b,1,640.0
40,zdspangler,0.25,key,green,green,congruent,upside_down,g,1,719.0
41,zdspangler,0.25,key,orange,orange,congruent,upside_down,o,1,495.0
42,zdspangler,0.25,key,orange,orange,congruent,upright,o,1,413.0
43,zdspangler,0.25,key,green,red,incongruent,upright,r,1,687.0
44,zdspangler,0.25,key,red,red,congruent,upside_down,r,1,556.0
45,zdspangler,0.25,key,yellow,red,incongruent,upright,r,1,633.0
46,zdspangler,0.25,key,yellow,yellow,congruent,upright,y,1,666.0
47,zdspangler,0.25,key,orange,blue,incongruent,upright,b,1,821.0
48,zdspangler,0.25,key,green,green,congruent,upside_down,g,1,641.0
49,zdspangler,0.25,key,green,green,congruent,upside_down,g,1,648.0
50,zdspangler,0.25,key,red,red,congruent,upright,r,1,641.0
51,zdspangler,0.25,key,blue,blue,congruent,upside_down,b,1,751.0
52,zdspangler,0.25,key,red,orange,incongruent,upright,o,1,648.0
53,zdspangler,0.25,key,blue,blue,congruent,upside_down,b,1,658.0
54,zdspangler,0.25,key,orange,green,incongruent,upside_down,g,1,866.0
55,zdspangler,0.25,key,yellow,yellow,congruent,upright,y,1,729.0
56,zdspangler,0.25,key,red,red,congruent,upside_down,r,1,558.0
57,zdspangler,0.25,key,orange,orange,congruent,upright,o,1,465.0
58,zdspangler,0.25,key,red,red,congruent,upside_down,r,1,485.0
59,zdspangler,0.25,key,orange,orange,congruent,upside_down,o,1,476.0
60,zdspangler,0.25,key,blue,blue,congruent,upside_down,b,1,553.0
61,zdspangler,0.25,key,orange,orange,congruent,upright,o,1,423.0
62,zdspangler,0.25,key,blue,orange,incongruent,upside_down,o,1,765.0
63,zdspangler,0.25,key,yellow,blue,incongruent,upside_down,b,1,737.0
64,zdspangler,0.25,key,yellow,blue,incongruent,upright,b,1,542.0
65,zdspangler,0.25,key,blue,green,incongruent,upside_down,g,1,743.0
66,zdspangler,0.25,key,green,green,congruent,upright,g,1,551.0
67,zdspangler,0.25,key,orange,orange,congruent,upright,o,1,418.0
68,zdspangler,0.25,key,red,red,congruent,upside_down,r,1,972.0
69,zdspangler,0.25,key,blue,blue,congruent,upright,b,1,521.0
70,zdspangler,0.25,key,blue,blue,congruent,upside_down,b,1,449.0
71,zdspangler,0.25,key,blue,red,incongruent,upside_down,r,1,833.0
72,zdspangler,0.25,key,yellow,yellow,congruent,upright,y,1,669.0
73,zdspangler,0.25,key,red,red,congruent,upside_down,r,1,471.0
74,zdspangler,0.25,key,green,green,congruent,upside_down,g,1,536.0
75,zdspangler,0.25,key,yellow,yellow,congruent,upside_down,y,1,704.0
76,zdspangler,0.25,key,blue,blue,congruent,upright,b,1,527.0
77,zdspangler,0.25,key,orange,orange,congruent,upright,o,1,527.0
78,zdspangler,0.25,key,blue,blue,congruent,upright,b,1,858.0
79,zdspangler,0.25,key,green,blue,incongruent,upright,b,1,709.0
80,zdspangler,0.25,key,blue,blue,congruent,upside_down,b,1,502.0
81,zdspangler,0.25,key,yellow,orange,incongruent,upside_down,o,1,876.0
82,zdspangler,0.25,key,orange,orange,congruent,upside_down,o,1,501.0
83,zdspangler,0.25,key,orange,orange,congruent,upright,o,1,394.0
84,zdspangler,0.25,key,red,red,congruent,upright,r,1,545.0
85,zdspangler,0.25,key,green,green,congruent,upright,g,1,626.0
86,zdspangler,0.25,key,red,red,congruent,upright,r,1,551.0
87,zdspangler,0.25,key,green,green,congruent,upright,g,1,485.0
88,zdspangler,0.25,key,red,red,congruent,upright,r,1,490.0
89,zdspangler,0.25,key,orange,orange,congruent,upright,o,1,472.0
90,zdspangler,0.25,key,green,green,congruent,upside_down,g,1,542.0
91,zdspangler,0.25,key,green,orange,incongruent,upside_down,o,1,658.0
92,zdspangler,0.25,key,blue,blue,congruent,upright,b,1,678.0
93,zdspangler,0.25,key,red,orange,incongruent,upright,o,1,697.0
94,zdspangler,0.25,key,red,red,congruent,upright,r,1,718.0
95,zdspangler,0.25,key,red,red,congruent,upright,r,1,546.0
96,zdspangler,0.25,key,red,red,congruent,upright,r,1,449.0
97,zdspangler,0.25,key,green,green,congruent,upright,g,1,514.0
98,zdspangler,0.25,key,blue,blue,congruent,upside_down,b,1,670.0
99,zdspangler,0.25,key,green,green,congruent,upside_down,g,1,640.0
100,zdspangler,0.25,key,blue,blue,congruent,upright,b,1,500.0
101,zdspangler,0.25,key,orange,green,incongruent,upright,g,1,802.0
102,zdspangler,0.25,key,yellow,yellow,congruent,upright,y,1,748.0
103,zdspangler,0.25,key,red,red,congruent,upright,r,1,514.0
104,zdspangler,0.25,key,yellow,yellow,congruent,upside_down,y,1,716.0
105,zdspangler,0.25,key,yellow,yellow,congruent,upright,y,1,648.0
106,zdspangler,0.25,key,green,green,congruent,upright,g,1,558.0
107,zdspangler,0.25,key,green,green,congruent,upside_down,g,1,430.0
108,zdspangler,0.25,key,red,red,congruent,upright,r,1,508.0
109,zdspangler,0.25,key,green,green,congruent,upright,g,1,445.0
110,zdspangler,0.25,key,green,blue,incongruent,upright,b,1,646.0
111,zdspangler,0.25,key,yellow,yellow,congruent,upright,y,1,798.0
112,zdspangler,0.25,key,blue,blue,congruent,upright,b,1,559.0
113,zdspangler,0.25,key,blue,blue,congruent,upright,b,1,653.0
114,zdspangler,0.25,key,orange,red,incongruent,upright,r,1,821.0
115,zdspangler,0.25,key,yellow,blue,incongruent,upside_down,b,1,754.0
116,zdspangler,0.25,key,yellow,yellow,congruent,upright,y,1,726.0
117,zdspangler,0.25,key,green,green,congruent,upside_down,g,1,658.0
118,zdspangler,0.25,key,red,yellow,incongruent,upside_down,y,1,955.0
119,zdspangler,0.25,key,orange,red,incongruent,upside_down,r,1,986.0
120,zdspangler,0.25,key,red,red,congruent,upside_down,r,1,681.0
